Folder: Stonk/Data

Note: Data/badTicker.txt
ABEV
ABGI
ACAH
ACAMU
ACB
ACBA
ACER
ACHL
ACQR
ACST
ACTD
ACVA
ADAG
ADER
ADXN
AEAC
AEMD
AFAQ
AFBI
AFCG
AGBA
AGGR
AGM-C
AGTI
AGX
AHL-C
AHL-D
AIRI
AJXA
AKIC
AKTS
AKYA
ALAC
ALACU
ALF
ALHC
ALKT
ALLY
ALTG
AMAO
AMCI
AMCR
AMEH
AMHC
AMRH
AMUB
ANZU
APHA
ARB
ARRW
ARTW
ARWR
ARYA
ARYD
ASAX
ASPC
ASRVP
ASTS
ASXC
ATER
ATHX
ATLO
ATNM
AUG
AURC
AUUD
AVAH
AVCO
AVCT
BAC.PR.C
BARK
BBSI
BCML
BCTF
BCYP
BDGE
BDL
BFLY
BFRA
BGCP
BGI
BGSF
BHR
BHTG
BIMI
BIO.B
BKYI
BLBD
BLD
BLDE
BLUW
BMEA
BMLP
BNE
BNKO
BNS
BOCH
BOTJ
BPRN
BPTH
BPTS
BRCN
BRG.PR.A
BRN
BROG
BRPA
BRPAU
BRPM
BTC
BTCM
BTG
BTNB
BW
BWFG
BWL.A
BWMN
BYFC
BYTS
CAHC
CAI
CANF
CAPR
CATC
CATS
CBAY
CBFV
CBMG
CCB
CCNC
CEA
CEMI
CENH
CEQP-
CFBK
CFFE
CFIV
CFV
CFVI
CGA
CGRN
CHMG
CHRS
CIH
CIZN
CJJD
CKPT
CKX
CLBS
CLGN
CLNN
CLRBZ
CLRM
CLVT
CMCL
CMII
CMMB
CMO-E
CMPX
CMRE-C
CNTB
CO
COCP
COLI
COVA
CPAA
C.PR.S
CPSH
CRCT
CRDF
CRSA
CRZN
CTK
CTLP
CTOS
CTSO
CUBI
CUO
CVCY
CVR
CVV
CWBR
CYCCP
CZWI
DAN
DBCP
DBGI
DBTX
DCF
DCRC
DCRN
DFFN
DGNU
DHBC
DHCA
DHHC
DIBS
DISA
DISCB
DJCO
DJPY
DKNG
DLCA
DLPN
DMAC
DMS
DOCN
DOMO
DOOO
DOOR
DPHC
DSEY
DSGN
DSP
DTEA
DTOC
DTSS
DUNE
DUOT
DV
DXPE
DX.PR.B
DYNS
EAF
EBAC
EBET
EBMT
EDR
EDSA
EEIQ
EFBI
EGLX
EJFA
EJH
ELDN
ELJ
ELOX
EM
EMCF
ENFA
ENNV
ENT
EPHY
EPIX
EPM
ESEA
ESI
EUSG
EVAX
EVGN
EVOJ
EWTX
FBIZ
FBMS
FCAP
FCAU
FCCO
FDBC
FEVR
FGBI
FINS
FIV
FLGC
FLMN
FMAO
FMBH
FMIV
FNCB
FNCH
FOA
FORTY
FPAC.UN
FPAY
FRON
FRSG
FRST
FRW
FSBC
FSDC
FSII
FSRX
FTAA
FTCI
FTCV
FTPA
FTS
FUE
FVCB
FWAC
FXNC
FYBR
GAZ
GBNH
GBNY
GBOX
GBRG
GCAC
GCE
GENI
GGMC
GGPI
GHAC
GHG
GIIX
GJH
GJO
GJP
GLBE
GLBL
GLBS
GLBZ
GLHA
GLIBP
GMAB
GMBT
GMHI
GMII
GMTX
GNAC
GOTU
GPAC
GPOR
GPRK
GRAF.UN
GSAQ
GSB
GSEV
GTPA
GTPB
GTYH
GURE
GVP
GWB
GXII
GYRO
HA
HALL
HAYW
HBMD
HBNC
HCACU
HCDI
HCIC
HCII
HDIV
HERA
HEXO
HFBL
HGSH
HIHO
HIII
HLAH
HL-B
HLG
HMG
HMPT
HNNA
HNRG
HNST
HOWL
HUD
HYW
HYXF
IBRX
ICL
IDBA
IFBD
IGNY
IKNA
IKNX
IMCC
IMPL
IMV
INBK
INDF
INFU
INKA
INPX
INSE
INSUU
INTG
INVZ
IOR
IOVA
IPV
IPVI
IPW
ISLE
ITHX
ITP
ITQ
JASN
JAX
JBK
JCIC
JCTCF
JG
JHY
JJC
JJP
JJS
JJU
JOAN
JOFF
JZXN
KAII
KAIR
KBLMU
KBSF
KE
KELYB
KEY-K
KIII
KINS
KIQ
KLAQ
KNBE
KRNL
KRT
KURI
KVSA
KVSB
KVSC
ABEV
ABGI
ACAH
ACAMU
ACB
ACBA
ACER
ACHL
ACQR
ACST
ACTD
ACVA
ADAG
ADER
ADXN
AEAC
AEMD
AFAQ
AFBI
AFCG
AGBA
AGGR
AGM-C
AGTI
AGX
AHL-C
AHL-D
AIRI
AJXA
AKIC
AKTS
AKYA
ALAC
ALACU
ALF
ALHC
ALKT
ALLY
ALTG
AMAO
AMCI
AMCR
AMEH
AMHC
AMRH
AMUB
ANZU
APHA
ARB
ARRW
ARTW
ARWR
ARYA
ARYD
ASAX
ASPC
ASRVP
ASTS
ASXC
ATER
ATHX
ATLO
ATNM
AUG
AURC
AUUD
AVAH
AVCO
AVCT
BAC.PR.C
BARK
BBSI
BCML
BCTF
BCYP
BDGE
BDL
BFLY
BFRA
BGCP
BGI
BGSF
BHTG
BIMI
BIO.B
BKYI
BLBD
BLD
BLDE
BLUW
BMEA
BMLP
BNE
BNKO
BNS
BOCH
BOTJ
BPRN
BPTH
BPTS
BRCN
BRG.PR.A
BRN
BROG
BRPA
BRPAU
BRPM
BTC
BTCM
BTG
BTNB
BW
BWFG
BWL.A
BWMN
BYFC
BYTS
CAHC
CANF
CAPR
CATC
CATS
CBAY
CBFV
CBMG
CCB
CCNC
CEA
CEMI
CENH
CEQP-
CFBK
CFFE
CFIV
CFV
CFVI
CGA
CGRN
CHMG
CHRS
CIH
CIZN
CJJD
CKPT
CKX
CLBS
CLGN
CLNN
CLRBZ
CLRM
CLVT
CMCL
CMII
CMMB
CMO-E
CMPX
CMRE-C
CNTB
CO
COCP
COLI
COVA
CPAA
C.PR.S
CPSH
CRCT
ABEV
ABGI
ACAH
ACAMU
ACB
ACBA
ACER
ACHL
ACQR
ACST
ACTD
ACVA
ADAG
ADER
ADXN
AEAC
AEMD
AFAQ
AFBI
AFCG


File: TGA.csv
"","Date","ADX","STOCHFK","STOCHFD","STOCHSD","BBandsUp","BbandsDn","BbandsMiddle","PercentB","RSI","SMA","EMA","MACD","Signal"
"17236978","2001-08-03",NA,NA,NA,NA,NA,NA,NA,NA,NA,NA,NA,NA,NA
"17236977","2001-08-06",NA,NA,NA,NA,NA,NA,NA,NA,NA,NA,NA,NA,NA
"17236976","2001-08-07",NA,NA,NA,NA,NA,NA,NA,NA,NA,NA,NA,NA,NA
"17236975","2001-08-08",NA,NA,NA,NA,NA,NA,NA,NA,NA,NA,NA,NA,NA
"17236974","2001-08-09",NA,NA,NA,NA,NA,NA,NA,NA,NA,NA,NA,NA,NA
"17236973","2001-08-10",NA,NA,NA,NA,NA,NA,NA,NA,NA,NA,NA,NA,NA
"17236972","2001-08-13",NA,NA,NA,NA,NA,NA,NA,NA,NA,NA,NA,NA,NA
"17236971","2001-08-14",NA,NA,NA,NA,NA,NA,NA,NA,NA,NA,NA,NA,NA
"17236970","2001-08-15",NA,NA,NA,NA,NA,NA,NA,NA,NA,NA,NA,NA,NA
"17236969","2001-08-16",NA,NA,NA,NA,NA,NA,NA,NA,NA,NA,NA,NA,NA
"17236968","2001-08-17",NA,NA,NA,NA,NA,NA,NA,NA,NA,NA,NA,NA,NA
"17236967","2001-08-20",NA,NA,NA,NA,NA,NA,NA,NA,NA,NA,NA,NA,NA
"17236966","2001-08-21",NA,NA,NA,NA,NA,NA,NA,NA,NA,NA,NA,NA,NA
"17236965","2001-08-22",NA,0.2,NA,NA,NA,NA,NA,NA,NA,NA,0.274286,NA,NA
"17236964","2001-08-23",NA,0.4,NA,NA,NA,NA,NA,NA,56.25,NA,0.276381,NA,NA
"17236963","2001-08-24",NA,0.8,0.466667,NA,NA,NA,NA,NA,65.5303,NA,0.28353,NA,NA
"17236897","2001-12-04",31.4316,0.2,0.444444,0.392593,0.305966,0.2097,0.257833,0.59176,52.324,0.2428,0.25091,5.32046,4.00097
"17236831","2002-03-12",15.5614,0.3,0.275,0.21627,0.347899,0.229435,0.288667,0.539393,46.525,0.2816,0.270753,-5.65846,-6.19291
"17236765","2002-06-14",21.6642,0.111111,0.185185,0.148148,0.395431,0.310236,0.352833,0.192862,43.1302,0.3432,0.33044,-1.37,0.295831
"17236699","2002-09-18",14.7316,0.25,0.208333,0.166667,0.325674,0.252659,0.289167,0.648372,48.902,0.2836,0.279854,-1.56059,-1.08989
"17236633","2002-12-20",28.646,0.5,0.472222,0.49537,0.459071,0.244596,0.351833,0.631328,59.1784,0.3296,0.362946,6.1945,5.13936
"17236567","2003-03-28",24.4939,1,0.592593,0.308642,0.481818,0.416515,0.449167,0.97216,64.008,0.4348,0.439396,2.28858,2.31439
"17236501","2003-07-02",16.235,0.142857,0.142857,0.142857,0.517389,0.472277,0.494833,0.31897,47.4545,0.4912,0.482462,-0.462313,-0.22192
"17236435","2003-10-06",43.7802,0.722222,0.703704,0.696078,1.04756,0.895106,0.971333,0.753626,68.3406,0.9516,0.957264,4.98141,5.36169
"17236369","2004-01-09",36.526,0.622222,0.607407,0.632496,2.84124,2.03776,2.4395,0.687312,65.2241,2.2752,2.4465,8.96546,10.2615
"17236303","2004-04-15",16.4582,0.357143,0.409946,0.555349,2.93503,2.24697,2.591,0.609971,53.3126,2.5024,2.62144,2.79589,2.58639
"17236237","2004-07-21",12.4005,0.0322581,0.0752688,0.100358,2.84155,2.50178,2.67167,0.230205,49.9011,2.5956,2.5983,1.37922,2.34365
"17236171","2004-10-22",32.0309,0.803419,0.69584,0.615014,4.34598,2.91968,3.63283,0.979445,69.6692,3.3804,3.68345,9.63842,9.68257
"17236105","2005-01-27",31.7465,0.743902,0.753676,0.768055,6.24406,4.21261,5.22833,0.809302,67.9847,5.0724,5.43748,6.09704,4.75899
"17236039","2005-05-03",21.4445,0.206667,0.206667,0.294388,6.46875,4.74158,5.60517,0.265416,41.1497,5.6096,5.38529,-4.26489,-4.09924
"17235973","2005-08-05",14.977,0.245455,0.357576,0.423206,6.97524,5.8591,6.41717,0.30543,45.7008,6.4112,6.29464,-0.172968,0.139784
"17235907","2005-11-08",32.406,0.695402,0.729885,0.799219,5.76877,4.3139,5.04133,0.579274,48.3662,5.0704,5.04028,-2.60328,-4.48493
"17235841","2006-02-14",19.3591,0,0.129252,0.308717,6.25322,5.02145,5.63733,0.293793,43.9625,5.4516,5.59327,1.69863,2.46168
"17235775","2006-05-19",24.9412,0,0.00358423,0.0107527,6.33323,4.98877,5.661,-0.0833842,23.4105,5.6676,5.36247,-3.33797,-1.37316
"17235709","2006-08-23",13.1868,0.25641,0.367333,0.386333,4.94799,4.64767,4.79783,0.473917,51.1319,4.7052,4.75071,0.273168,0.197645
"17235643","2006-11-27",22.6683,0.714286,0.685714,0.689693,5.1787,4.3943,4.7865,0.869918,68.5426,4.7212,4.8641,2.34019,1.47053
"17235577","2007-03-06",23.8492,0.157143,0.052381,0.0219955,4.81635,4.10565,4.461,0.170275,37.0676,4.474,4.31515,-3.34607,-2.70076
"17235511","2007-06-08",8.59196,0.551724,0.670374,0.727025,4.09891,3.77776,3.93833,0.640121,51.8555,3.9204,3.94753,0.157996,-0.335396
"17235445","2007-09-12",20.5424,0.662162,0.661447,0.674503,4.48249,3.51184,3.99717,0.897841,59.4759,3.8776,4.09505,1.04605,-0.796768
"17235379","2007-12-14",11.6634,0.7,0.606667,0.573333,5.44807,5.05693,5.2525,0.843011,57.0164,5.1956,5.23053,0.34186,-0.0420339
"17235313","2008-03-24",28.4918,0.0437956,0.0145985,0.0152828,5.89435,4.27865,5.0865,0.0544738,29.4581,5.0524,4.71642,-4.01244,-1.64678
"17235247","2008-06-25",14.3524,0.428571,0.420635,0.448345,5.34791,4.92743,5.13767,0.711664,54.7206,5.066,5.10716,1.35759,1.28847
"17235181","2008-09-29",40.4933,0,0.138467,0.19129,3.85428,2.64072,3.2475,0.128503,30.2941,3.2988,3.05702,-7.31864,-7.00273
"17235115","2009-01-02",17.4366,0.534091,0.416667,0.339458,2.67123,1.86477,2.268,0.829007,62.0981,2.1392,2.25832,3.98335,3.24756
"17235049","2009-04-08",14.4056,0,-5.73615e-15,0.0502646,2.94996,2.37904,2.6645,-0.144271,36.3077,2.596,2.53886,-1.48101,0.534588
"17234983","2009-07-14",16.0854,0.338983,0.214689,0.111111,2.86398,2.29202,2.578,0.276207,43.1804,2.5816,2.44954,-3.40056,-2.17551
"17234917","2009-10-15",33.0496,0.755556,0.779207,0.787591,4.37127,3.10373,3.7375,1.03056,79.8988,3.6124,3.87126,6.92359,4.93961
"17234851","2010-01-21",15.3467,0.245614,0.366582,0.480727,3.83459,3.22307,3.52883,0.447399,46.3682,3.4688,3.53733,0.868788,0.808788
"17234785","2010-04-27",55.5317,0.689873,0.791139,0.815621,7.51258,5.46442,6.4885,0.748108,69.9865,6.1136,6.62215,9.54846,10.0805
"17234719","2010-07-30",13.2494,0.569767,0.563808,0.561071,7.67694,6.92139,7.29917,0.611397,51.2722,7.22,7.25285,0.0764444,-0.12255
"17234653","2010-11-02",29.3787,0.717647,0.607637,0.540732,11.1305,9.42283,10.2767,0.999703,67.7459,9.9784,10.2943,4.74466,4.98703
"17234587","2011-02-07",27.7622,0.512535,0.431161,0.361236,15.8919,12.2571,14.0745,0.527191,46.3665,14.204,13.4699,-4.09179,-3.91919
"17234521","2011-05-12",20.6162,0.309237,0.400268,0.336011,14.8284,12.5806,13.7045,0.288904,43.2539,13.7752,13.3664,-2.2932,-1.92206
"17234455","2011-08-16",26.573,0.462162,0.422621,0.336964,12.7401,7.77258,10.2563,0.357138,41.464,10.4024,9.48835,-7.22127,-7.05653
"17234389","2011-11-17",12.6739,0,0.0289017,0.07386,10.6416,8.94843,9.795,-0.0404188,40.6167,9.4728,9.366,0.1862,1.63016
"17234323","2012-02-24",41.0113,0.692308,0.560701,0.617531,10.9889,9.40674,10.1978,0.971182,70.0485,9.9292,10.2557,4.2989,4.39942
"17234257","2012-05-30",28.6275,0,0.0817121,0.0694494,13.6562,8.8408,11.2485,0.23242,34.1801,11.536,10.5864,-5.64867,-4.98644
"17234191","2012-08-31",16.6648,0.481481,0.528807,0.588684,11.0361,8.97922,10.0077,0.611333,56.4891,9.7696,10.088,3.16556,3.30318
"17234125","2012-12-07",20.555,0,0.0335731,0.0707448,11.7351,9.56525,10.6502,0.0129431,29.3448,10.7684,10.237,-3.23441,-2.17469
"17234059","2013-03-15",26.5257,0.801282,0.843929,0.86534,9.29831,7.29069,8.2945,0.907862,66.6282,8.2876,8.55851,1.61016,-0.0301212
"17233993","2013-06-19",16.0164,0,0.0343137,0.0506536,7.56228,6.90638,7.23433,0.203715,35.9036,7.224,7.12425,-2.01835,-2.09382
"17233927","2013-09-23",35.1948,0.622449,0.667167,0.724387,7.98161,6.51972,7.25067,0.814206,67.1206,7.068,7.37328,3.91301,3.52334
"17233861","2013-12-26",16.902,0.0431034,0.017344,0.031575,9.12691,8.14209,8.6345,0.102804,39.8898,8.5476,8.40865,-1.37414,-0.839062
"17233795","2014-04-02",12.9989,0.343434,0.255892,0.224467,7.83834,7.207,7.52267,0.664729,55.0196,7.406,7.41326,0.287619,-0.0146385
"17233729","2014-07-08",13.5182,0.166667,0.277778,0.437037,7.54535,6.98065,7.263,0.471076,49.9832,7.15,7.21397,0.995614,1.1231
"17233663","2014-10-09",26.1124,0,-3.27284e-15,0.01001,6.66763,5.20971,5.93867,0.0184927,24.4251,5.942,5.6475,-4.59346,-3.34164
"17233597","2015-01-14",24.4983,0,-2.86808e-15,0.0233918,4.09909,2.76891,3.434,0.00833979,31.1056,3.2476,3.21991,-3.86806,-1.70431
"17233531","2015-04-21",49.6908,0.755319,0.761032,0.744542,4.50447,3.20886,3.85667,0.839609,81.5342,3.6256,3.9584,7.89784,7.23272
"17233465","2015-07-24",34.666,0,0.00673401,0.00673401,4.22976,2.86024,3.545,0.0606751,25.3867,3.5584,3.26504,-7.27324,-5.1892
"17233399","2015-10-27",14.6734,0,0.00641026,0.0320513,3.00949,2.48317,2.74633,0.0763025,38.7716,2.6736,2.64206,-1.60248,-0.826247
"17233333","2016-02-02",21.8698,0.446809,0.548703,0.521317,1.74874,0.936255,1.3425,0.38205,38.9361,1.3864,1.27897,-8.19913,-10.1535
"17233267","2016-05-06",31.6687,0,0.235511,0.35339,2.03215,1.69051,1.86133,0.437556,50.4779,1.7904,1.83642,2.91745,3.88835
"17233201","2016-08-10",9.02511,0.2,0.183333,0.142308,1.79332,1.52968,1.6615,0.279364,41.4771,1.6564,1.60936,-2.24299,-2.06335
"17233135","2016-11-11",24.1189,0,0.03125,0.0441228,2.10487,1.66779,1.88633,0.241466,32.5267,1.8984,1.81029,-2.68581,-2.15152
"17233069","2017-02-17",13.3852,0.458333,0.472222,0.481481,1.79417,1.64949,1.72183,0.602524,51.9931,1.7032,1.70332,-0.0333139,-0.434651
"17233003","2017-05-24",22.1871,0.545455,0.525253,0.552189,1.63738,1.36096,1.49917,0.732137,55.8577,1.4764,1.51272,0.910089,-0.0394495
"17232937","2017-08-28",16.0788,0.4,0.377778,0.304483,1.32274,1.15026,1.2365,0.520292,46.6151,1.2432,1.2122,-1.99336,-2.37179
"17232871","2017-11-30",20.1593,0.333333,0.134921,0.129299,1.63727,1.35039,1.49383,0.312347,46.0544,1.4912,1.45246,-1.0106,-0.373342
"17232805","2018-03-08",29.5601,0.4375,0.4375,0.347222,1.34047,1.2502,1.29533,0.367071,44.7605,1.298,1.27545,-2.23239,-2.3942
"17232739","2018-06-12",39.583,0.5,0.382275,0.381657,2.6297,1.96963,2.29967,0.641904,60.2133,2.1716,2.2822,6.88594,7.99358
"17232673","2018-09-14",26.7017,0.507246,0.516908,0.485825,3.68228,3.10205,3.39217,0.800745,61.7609,3.2572,3.36313,2.59116,2.02166
"17232607","2018-12-19",31.6834,0,-2.90971e-15,0.00775194,2.29505,1.66529,1.98017,0.0180688,30.3401,1.9768,1.85324,-7.91427,-7.02948
"17232541","2019-03-27",23.8625,0.0638298,0.0212766,0.0626478,2.2265,1.82184,2.02417,-0.086914,33.8231,1.9908,1.94119,-1.26082,0.837667
"17232475","2019-07-01",47.9436,0.153846,0.137652,0.0863698,1.53275,1.34892,1.44083,0.31414,34.9875,1.4356,1.40872,-4.07897,-4.68617
"17232409","2019-10-03",14.9801,0,-3.51339e-15,-3.0242e-15,1.53427,1.2624,1.39833,0.0156927,34.6341,1.3644,1.33553,-2.08669,-0.924595
"17232343","2020-01-08",33.9196,0.272727,0.40404,0.472668,1.55436,1.15364,1.354,0.523291,52.2328,1.2916,1.35778,3.93205,4.34507
"17232277","2020-04-14",40.2099,0.522609,0.565652,0.522754,0.472383,0.32571,0.399047,0.761034,39.5811,0.402684,0.410813,-18.4843,-23.6624
"17232211","2020-07-17",16.6496,0.163161,0.242518,0.263269,0.630184,0.534866,0.582525,0.42525,49.3937,0.564248,0.57465,1.91721,2.20078
"17232145","2020-10-20",38.9229,0.288618,0.299206,0.264069,0.473775,0.362232,0.418003,0.786856,55.3753,0.405492,0.421419,-0.971267,-3.21329
"17232079","2021-01-26",42.0714,0,0.373737,0.512127,1.22446,0.84622,1.03534,0.361971,47.4824,0.977444,1.02727,6.94297,9.46753
"17232013","2021-04-30",12.5673,0.6,0.597193,0.557193,1.61515,1.41655,1.51585,0.974048,58.7704,1.50042,1.51333,1.10036,0.418409
"17231979","2021-06-18",17.5344,0,0.27381,0.410522,1.95023,1.68177,1.816,0.37833,48.3499,1.750596,1.7848,2.81278,3.78248